{
  "resourceType": "Bundle",
  "id": "ExampleOMRS0",
  "type": "transaction",
  "entry": [
    {
      "fullUrl": "https://path-global-health.github.io/MERindicators/Patient/PatientOMRS0",
      "request": {
        "url": "Patient",
        "method": "POST"
      },
      "resource": {
        "resourceType": "Patient",
        "id": "PatientOMRS0",
        "meta": {
          "profile": [
            "http://fhir.openmrs.org/core/StructureDefinition/omrs-patient"
          ]
        },
        "active": true,
        "identifier": [
          {
            "extension": [
              {
                "url": "http://fhir.openmrs.org/core/StructureDefinition/omrs-patient-identifier-location",
                "valueReference": {
                  "reference": "Location/a3b793f0-eb53-4cda-92ce-fe0a77106252",
                  "type": "Location",
                  "display": "Inpatient Ward"
                }
              }
            ],
            "use": "official",
            "type": {
              "coding": [
                {
                  "code": "MR",
                  "system": "http://terminology.hl7.org/CodeSystem/v2-0203"
                }
              ],
              "text": "OpenMRS ID"
            },
            "value": "4343534"
          }
        ],
        "name": [
          {
            "family": "Jeannette",
            "given": [
              "Ricky"
            ]
          }
        ],
        "gender": "male",
        "birthDate": "1996-12-12",
        "telecom": [
          {
            "value": "+256788232241",
            "system": "phone"
          }
        ],
        "address": [
          {
            "use": "home",
            "country": "Washington",
            "city": "Washington",
            "district": "Washington"
          }
        ],
        "deceasedBoolean": false
      }
    },
    {
      "fullUrl": "https://path-global-health.github.io/MERindicators/Location/LocationExample",
      "request": {
        "url": "Location",
        "method": "POST"
      },
      "resource": {
        "resourceType": "Location",
        "id": "a3b793f0-eb53-4cda-92ce-fe0a77106252",
        "meta": {
          "profile": [
            "http://fhir.openmrs.org/core/StructureDefinition/omrs-location"
          ]
        },
        "status": "active",
        "name": "Outpatient Clinic",
        "description": "Outpatient Clinic",
        "type": [
          {
            "coding": [
              {
                "code": "SLEEP",
                "system": "http://terminology.hl7.org/CodeSystem/v3-RoleCode",
                "display": "Sleep disorders unit"
              }
            ]
          }
        ],
        "telecom": [
          {
            "system": "phone",
            "value": "(+1) 734-677-7777"
          },
          {
            "system": "fax",
            "value": "(+1) 734-677-6622"
          },
          {
            "system": "email",
            "value": "hq@HL7.org"
          }
        ],
        "address": {
          "use": "home",
          "line": [
            "3300 Washtenaw Avenue, Suite 227"
          ],
          "city": "Ann Arbor",
          "district": "Mukono",
          "state": "MI",
          "postalCode": "48104",
          "country": "USA"
        },
        "position": {
          "latitude": 42.2565,
          "longitude": -83.69471
        }
      }
    },
    {
      "fullUrl": "https://path-global-health.github.io/MERindicators/Observation/ObservationOMRS0",
      "request": {
        "url": "Observation",
        "method": "POST"
      },
      "resource": {
        "resourceType": "Observation",
        "id": "ObservationOMRS0",
        "meta": {
          "profile": [
            "http://fhir.openmrs.org/core/StructureDefinition/OpenMRS-observation"
          ]
        },
        "category": [
          {
            "coding": [
              {
                "system": "http://terminology.hl7.org/CodeSystem/observation-category",
                "code": "exam"
              }
            ]
          }
        ],
        "code": {
          "coding": [
            {
              "code": "160119",
              "system": "https://openconceptlab.org/orgs/CIEL/sources/CIEL",
              "display": "Currently taking ARV"
            }
          ],
          "text": "Currently taking ARV"
        },
        "status": "final",
        "subject": {
          "reference": "Patient/PatientOMRS0"
        },
        "encounter": {
          "reference": "Encounter/5b829d01-34bb-47d1-b1bb-9303c3a9ebcb"
        },
        "valueCodeableConcept": {
          "coding": [
            {
              "code": "1065",
              "system": "https://openconceptlab.org/orgs/CIEL/sources/CIEL",
              "display": "Yes"
            }
          ]
        }
      }
    }
  ]
}
