{
  "resourceType": "Bundle",
  "id": "Example0",
  "type": "transaction",
  "entry": [
    {
      "fullUrl": "https://path-global-health.github.io/MERindicators/Patient/example-openmrs-Patient",
      "request": {
        "url": "Patient",
        "method": "POST"
      },
      "resource": {
        "resourceType": "Patient",
        "id": "example-openmrs-Patient",
        "meta": {
          "profile": [
            "http://fhir.openmrs.org/core/StructureDefinition/omrs-patient"
          ]
        },
        "active": true,
        "identifier": [
          {
            "extension": [
              {
                "url": "http://fhir.openmrs.org/core/StructureDefinition/omrs-patient-identifier-location",
                "valueReference": {
                  "reference": "Location/a3b793f0-eb53-4cda-92ce-fe0a77106252",
                  "type": "Location",
                  "display": "Inpatient Ward"
                }
              }
            ],
            "use": "official",
            "type": {
              "coding": [
                {
                  "code": "MR",
                  "system": "http://terminology.hl7.org/CodeSystem/v2-0203"
                }
              ],
              "text": "OpenMRS ID"
            },
            "value": "4343534"
          }
        ],
        "name": [
          {
            "family": "Jeannette",
            "given": [
              "Ricky"
            ]
          }
        ],
        "gender": "male",
        "birthDate": "1996-12-12",
        "telecom": [
          {
            "value": "+256788232241",
            "system": "phone"
          }
        ],
        "address": [
          {
            "use": "home",
            "country": "Washington",
            "city": "Washington",
            "district": "Washington"
          }
        ],
        "deceasedBoolean": false
      }
    },
    {
      "fullUrl": "https://path-global-health.github.io/MERindicators/Location/LocationExample",
      "request": {
        "url": "Location",
        "method": "POST"
      },
      "resource": {
        "resourceType": "Location",
        "id": "a3b793f0-eb53-4cda-92ce-fe0a77106252",
        "meta": {
          "profile": [
            "http://fhir.openmrs.org/core/StructureDefinition/omrs-location"
          ]
        },
        "status": "active",
        "name": "Outpatient Clinic",
        "description": "Outpatient Clinic",
        "type": [
          {
            "coding": [
              {
                "code": "SLEEP",
                "system": "http://terminology.hl7.org/CodeSystem/v3-RoleCode",
                "display": "Sleep disorders unit"
              }
            ]
          }
        ],
        "telecom": [
          {
            "system": "phone",
            "value": "(+1) 734-677-7777"
          },
          {
            "system": "fax",
            "value": "(+1) 734-677-6622"
          },
          {
            "system": "email",
            "value": "hq@HL7.org"
          }
        ],
        "address": {
          "use": "home",
          "line": [
            "3300 Washtenaw Avenue, Suite 227"
          ],
          "city": "Ann Arbor",
          "district": "Mukono",
          "state": "MI",
          "postalCode": "48104",
          "country": "USA"
        },
        "position": {
          "latitude": 42.2565,
          "longitude": -83.69471
        }
      }
    },
    {
      "fullUrl": "https://path-global-health.github.io/MERindicators/Condition/ConditionExample",
      "request": {
        "url": "Condition",
        "method": "POST"
      },
      "resource": {
        "resourceType": "Condition",
        "id": "a6867095-e2b1-4a68-9aaa-0d161a37ce9c",
        "meta": {
          "profile": [
            "http://fhir.openmrs.org/core/StructureDefinition/omrs-Condition"
          ]
        },
        "code": {
          "coding": [
            {
              "system": "https://openconceptlab.org/orgs/CIEL/sources/CIEL",
              "code": "116128"
            }
          ]
        },
        "subject": {
          "reference": "Patient/example-openmrs-Patient",
          "type": "Patient",
          "identifier": {
            "use": "official",
            "value": "101-6"
          },
          "display": "Horatio Hornblower (OpenMRS ID:101-6)"
        },
        "recordedDate": "2019-06-18T06:37:26+03:00"
      }
    },
    {
      "fullUrl": "https://path-global-health.github.io/MERindicators/Encounter/EncounterExample",
      "request": {
        "url": "Encounter",
        "method": "POST"
      },
      "resource": {
        "resourceType": "Encounter",
        "id": "5b829d01-34bb-47d1-b1bb-9303c3a9ebcb",
        "meta": {
          "profile": [
            "http://fhir.openmrs.org/core/StructureDefinition/omrs-encounter"
          ]
        },
        "status": "unknown",
        "class": {
          "code": "AMB",
          "system": "http://terminology.hl7.org/CodeSystem/v3-ActCode"
        },
        "subject": {
          "reference": "Patient/example-openmrs-Patient",
          "type": "Patient"
        },
        "type": [
          {
            "coding": [
              {
                "code": "67a71486-1a54-468f-ac3e-7091a9a79584",
                "display": "Vitals",
                "system": "http://fhir.openmrs.org/code-system/encounter-type"
              }
            ]
          }
        ],
        "period": {
          "start": "2022-06-22",
          "end": "2022-06-22"
        },
        "location": [
          {
            "location": {
              "reference": "Location/a3b793f0-eb53-4cda-92ce-fe0a77106252"
            }
          }
        ]
      }
    },
    {
      "fullUrl": "https://path-global-health.github.io/MERindicators/DiagnosticReport/example-Openmrs-DiagnosticReport",
      "request": {
        "url": "DiagnosticReport",
        "method": "POST"
      },
      "resource": {
        "resourceType": "DiagnosticReport",
        "id": "8a849d5e-6011-4279-a124-40ada5a687de",
        "meta": {
          "profile": [
            "http://fhir.openmrs.org/core/StructureDefinition/OpenMRS-diagnostic-report"
          ]
        },
        "code": {
          "coding": [
            {
              "code": "8480-6",
              "system": "http://loinc.org",
              "display": "Systolic blood pressure"
            }
          ]
        },
        "subject": {
          "reference": "Patient/example-openmrs-Patient"
        },
        "encounter": {
          "reference": "Encounter/5b829d01-34bb-47d1-b1bb-9303c3a9ebcb"
        },
        "result": [
          {
            "reference": "Observation/example-openmrs-Observation"
          }
        ],
        "issued": "2011-03-04T11:45:33+11:00",
        "status": "final"
      }
    },
    {
      "fullUrl": "https://path-global-health.github.io/MERindicators/Observation/example-openmrs-Observation",
      "request": {
        "url": "Observation",
        "method": "POST"
      },
      "resource": {
        "resourceType": "Observation",
        "id": "example-openmrs-Observation",
        "meta": {
          "profile": [
            "http://fhir.openmrs.org/core/StructureDefinition/OpenMRS-observation"
          ]
        },
        "category": [
          {
            "coding": [
              {
                "system": "http://terminology.hl7.org/CodeSystem/observation-category",
                "code": "exam"
              }
            ]
          }
        ],
        "code": {
          "coding": [
            {
              "code": "431314004",
              "system": "http://snomed.info/sct",
              "display": "SpO2 - saturation of peripheral oxygen"
            }
          ],
          "text": "Arterial blood oxygen saturation (pulse oximeter)"
        },
        "status": "final",
        "subject": {
          "reference": "Patient/example-openmrs-Patient"
        },
        "encounter": {
          "reference": "Encounter/5b829d01-34bb-47d1-b1bb-9303c3a9ebcb"
        },
        "valueQuantity": {
          "value": 25,
          "unit": "DEG C"
        },
        "interpretation": [
          {
            "coding": [
              {
                "code": "H",
                "system": "http://terminology.hl7.org/CodeSystem/v3-ObservationInterpretation",
                "display": "High"
              }
            ]
          }
        ],
        "referenceRange": [
          {
            "low": {
              "value": 10
            },
            "high": {
              "value": 272
            },
            "type": {
              "coding": [
                {
                  "system": "http://fhir.openmrs.org/ext/obs/reference-range",
                  "code": "absolute"
                }
              ]
            }
          }
        ]
      }
    }
  ]
}
